Folder: CL688_project

Note: README.md
# CL688_project
Concrete Mix Optimization with Machine Learning

File: Concrete_Data.csv
Type_of_Coarse_Aggregate,Type_of_Fine_Aggregate,Max_Size_of_Coarse_Aggregate(mm),Passing_0.6_mm_sieve(%),Target_Mean_Strength(MPa),Cement_O.P.C.(kg/m3),W/C_Ratio,Water_Content(kg/m3),Total_Aggregate(kg/m3),Fine_Aggregate(kg/m3),Coarse_Aggregate(kg/m3),Workability_Slump(mm),Hardened_Concrete_Density_(avg.),7_day_str(MPa),28_day_str(MPa),Admix_1,Admix_2,Dos_1(lit),Dos_2(lit),,
Crushed,Natural,40,0,43,365,0.52,225,1870,710,1160,160,2407,21.8,26.3,NA,NA,0,0,,
Natural,Natural,20,19.5,38,325,0.51,165,1910,840,1070,170,2404,27,0,SP,NA,1,0,,
Crushed,Natural,20,33.4,38,370,0.5,185,1895,795,1100,125,2449,37.8,46.4,CO,NA,0.8,0,,
Crushed,Natural,20,24.9,38,350,0.54,190,1900,760,1140,140,2445,31,0,RH,NA,4.2,0,,
Crushed,Natural,20,47,38,340,0.53,180,1930,770,1160,120,2449,36.5,34.8,DO,NA,1,0,,
Crushed,Natural,20,52.5,38,350,0.57,200,1910,710,1200,125,2453,19,37.6,CO,NA,0.8,0,,
Crushed,Natural,20,49.5,38,380,0.5,190,1845,610,1235,180,2424,29.1,0,SP,NA,0.9,0,,
Crushed,Natural,20,0,38,350,0.54,190,1885,755,1130,80,2431,25.8,0,NA,NA,0,0,,
Crushed,Natural,20,76,38,350,0.53,185,1915,595,1320,120,2453,28.5,37.6,SI,NA,1,0,,
Crushed,Natural,20,44.5,38,350,0.6,210,1865,710,1155,90,2428,27.8,0,NA,NA,0,0,,
Natural,Natural,40,56.3,38,375,0.48,180,1845,830,1015,220,2407,35.9,43.9,SP,NA,1,0,,
Crushed,Natural,20,32.4,38,365,0.53,195,1860,835,1025,165,2425,31.3,0,NA,NA,0,0,,
Natural,Natural,20,24.3,38,350,0.5,175,1865,820,1045,158,2394,29.8,37.5,KE,NA,0.8,0,,
Crushed,Crushed,40,21.8,38,340,0.56,190,1910,860,1050,140,2446,36.7,0,SI,NA,1.25,0,,
Crushed,Natural,20,26.9,38,350,0.4,190,1920,865,1055,180,2462,30.5,0,SP,NA,0.9,0,,
Crushed,Natural,20,32.4,38,365,0.47,170,1925,865,1060,170,2455,39.8,49.1,X-,NA,1.5,0,,
Natural,Natural,20,31.6,38,350,0.49,170,1875,805,1075,200,2401,35.9,0,CO,NA,0.8,0,,
Crushed,Natural,20,31.9,38,350,0.54,190,1880,805,1075,125,2425,33.3,45.7,SI,NA,1,0,,
Natural,Natural,20,48.7,38,350,0.49,170,1870,785,1085,200,2392,27.3,32.8,EU,NA,1,0,,
Crushed,Natural,20,31,38,350,0.53,185,1915,825,1090,160,2455,35.2,0,SP,NA,1,0,,
Natural,Natural,40,15.6,38,350,0.46,160,1890,795,1095,140,2406,32.9,0,SB,NA,3.5,0,,
Natural,Natural,20,30,38,375,0.51,190,1835,735,1100,145,2404,23.7,0,NA,NA,0,0,,
Natural,Natural,20,24.2,38,340,0.5,170,1880,770,1110,125,2454,31.4,39,EU,NA,0.75,0,,
Natural,Natural,20,41,38,350,0.53,185,1845,735,1110,110,2384,26.3,0,NA,NA,0,0,,
Natural,Natural,40,0,38,350,0.48,168,1862,745,1110,70,2395,24.7,0,NA,NA,0,0,,
Natural,Natural,20,48.3,38,350,0.5,175,1855,740,1115,80,2387,27.6,0,NA,NA,0,0,,
Natural,Natural,40,46.8,38,350,0.5,175,1855,740,1115,130,2388,32.4,0,EU,NA,0.5,0,,
Natural,Natural,40,12.7,38,360,0.49,175,1865,745,1120,120,2404,28,0,NA,NA,0,0,,
Natural,Natural,40,50,38,340,0.5,170,1890,665,1125,190,2408,32.4,0,SP,NA,1,0,,
Natural,Natural,40,30,38,350,0.5,175,1875,750,1125,210,2405,27.5,36.1,JY,NA,1.25,0,,
Crushed,Natural,20,45.8,38,350,0.54,190,1910,780,1130,100,2404,20.5,29.7,NA,NA,0,0,,
Natural,Natural,20,39,38,350,0.49,170,1880,750,1130,150,2402,33.9,0,RE,NA,1,0,,
Natural,Natural,40,37.4,38,325,0.49,160,1915,780,1135,200,2402,25.6,0,NA,NA,0,0,,
Natural,Natural,40,37.9,38,360,0.51,185,1835,700,1135,140,2387,24.9,0,NA,NA,0,0,,
Crushed,Natural,20,26.9,38,350,0.51,180,1910,765,1140,150,2369,21.8,0,NA,NA,0,0,,
Crushed,Natural,20,42.1,38,345,0.55,190,1905,760,1145,145,2446,33.9,43.2,RH,NA,1.25,0,,
Crushed,Natural,20,23.1,38,350,0.53,185,1915,770,1145,120,2456,21.9,0,NA,NA,0,0,,
Crushed,Natural,20,24.5,38,350,0.51,180,1910,765,1145,185,2445,31.8,0,SP,NA,1,0,,
Crushed,Natural,20,39,38,350,0.53,185,1905,760,1145,190,2443,33.2,0,RE,NA,0.75,0,,
Crushed,Natural,20,38.3,38,350,0.53,185,1915,770,1145,110,2455,32.4,0,NA,NA,0,0,,
Natural,Natural,20,55.1,38,350,0.51,180,1850,705,1145,100,2384,27.1,32.1,NA,NA,0,0,,
Natural,Natural,40,32.4,38,350,0.51,180,1850,705,1145,160,2390,28.6,39.6,NA,NA,0,0,,
Natural,Natural,40,37.4,38,300,0.53,160,1940,790,1150,150,2405,28.3,0,SP,NA,1,0,,
Crushed,Natural,20,36,38,350,0.54,190,1920,770,1150,120,2463,24.8,31.1,NA,NA,0,0,,
Crushed,Natural,20,53.5,38,350,0.51,180,1920,725,1150,130,2454,28.6,0,JY,NA,1.25,0,,
Natural,Natural,40,33.1,38,350,0.5,175,1855,705,1150,140,2383,27.7,36.3,NA,NA,0,0,,
Crushed,Natural,20,47.3,38,375,0.55,205,1850,700,1150,75,2435,29.1,0,NA,NA,0,0,,
Natural,Natural,40,0,38,360,0.45,162,1858,706,1152,80,2408,28.7,38.1,NA,NA,0,0,,
Natural,Natural,40,28,38,340,0.49,165,1895,740,1155,170,2403,28.4,34.2,SI,NA,0.8,0,,
Natural,Natural,40,0,38,350,0.5,175,1925,770,1155,120,2455,18.3,28.3,SP,NA,1,0,,
Natural,Natural,40,34.4,38,350,0.5,175,1855,700,1155,150,2390,24.3,33.2,NA,NA,0,0,,
Natural,Natural,20,21.4,38,360,0.5,180,1840,685,1155,100,2390,26.5,0,NA,NA,0,0,,
Crushed,Natural,20,51.8,38,335,0.52,185,1930,770,1160,185,2452,34.1,44.2,SP,NA,0.9,0,,
Natural,Natural,20,55.8,38,350,0.51,180,1870,710,1160,150,2403,12,0,NA,NA,0,0,,
Natural,Natural,20,56,38,360,0.49,175,1845,685,1160,95,2391,26.3,32.5,NA,NA,0,0,,
Crushed,Natural,20,29.7,38,350,0.54,190,1910,745,1165,150,2455,23.1,32,SP,NA,0.75,0,,
Natural,Natural,40,50.2,38,350,0.5,175,1865,700,1165,70,2395,27.6,33.6,NA,NA,0,0,,
Natural,Natural,40,28,38,325,0.49,160,1915,477,1168,110,2401,26,0,SI,NA,0.8,0,,
Crushed,Natural,20,49,38,350,0.47,165,1855,715,1170,135,2407,33.9,45.7,PE,NA,1,0,,
Natural,Natural,20,37.6,38,350,0.46,160,1890,720,1170,200,2406,32.4,0,SI,NA,1,0,,
Natural,Natural,40,34.2,38,350,0.54,190,1885,715,1170,100,2404,19.9,0,NA,NA,0,0,,
Crushed,Natural,20,33.1,38,375,0.51,190,1885,715,1170,120,2452,24.9,31.5,NA,NA,0,0,,
Crushed,Natural,20,26.3,38,350,0.54,190,1900,725,1175,150,2449,34.6,0,NA,NA,0,0,,
Crushed,Natural,20,62.9,38,365,0.53,195,1880,695,1175,100,2443,25.1,33.4,NA,NA,0,0,,
Natural,Natural,20,45.9,38,350,0.51,180,1870,690,1180,100,2405,17.9,25.3,NA,NA,0,0,,
Crushed,Natural,20,43.3,38,350,0.5,185,1905,725,1180,150,2453,30.8,0,NA,NA,0,0,,
Crushed,Natural,40,14.7,38,350,0.51,100,1870,690,1180,100,2404,19.4,24.5,NA,NA,0,0,,
Natural,Natural,40,41.4,38,350,0.51,180,1870,690,1180,130,2403,19.7,0,NA,NA,0,0,,
Natural,Natural,40,67.4,38,350,0.5,175,1875,695,1180,140,2401,27.7,0,NA,NA,0,0,,
Natural,Natural,40,42.1,38,360,0.5,180,1850,670,1180,125,2385,24.3,34.8,NA,NA,0,0,,
Natural,Natural,40,32.4,38,350,0.44,153,1907,725,1182,220,2435,37,43.4,X-,NA,1.5,0,,
Crushed,Natural,20,30.2,38,350,0.53,185,1915,730,1185,140,2456,28.9,39.9,SP,NA,1,0,,
Natural,Natural,20,57.8,38,350,0.49,170,1880,695,1185,110,2409,32.6,40.1,NA,NA,0,0,,
Crushed,Natural,20,43.9,38,350,0.54,190,1910,725,1185,175,2454,29,0,NA,NA,0,0,,
Natural,Natural,40,42.7,38,350,0.49,170,1880,695,1185,155,2399,26.9,33.2,NA,NA,0,0,,
Natural,Natural,40,0,38,350,0.51,180,1850,665,1185,150,2389,25.3,29.3,NA,NA,0,0,,
Natural,Natural,40,0,38,360,0.51,180,1850,665,1185,170,2397,23.5,29.6,NA,NA,0,0,,
Natural,Natural,40,24,38,325,0.49,160,1915,725,1190,175,2405,31.5,0,EU,NA,1,0,,
Crushed,Natural,20,50.7,38,350,0.54,190,1920,730,1190,150,2455,24.1,0,NA,NA,0,0,,
Crushed,Natural,40,67.4,38,350,0.54,190,1890,700,1190,135,2435,30.4,0,NA,NA,0,0,,
Natural,Natural,40,36.9,38,350,0.5,175,1860,670,1190,110,2389,22.1,28.4,NA,NA,0,0,,
Natural,Natural,40,37.1,38,360,0.5,180,1860,670,1190,130,2404,28.1,36.3,NA,NA,0,0,,
Natural,Natural,20,67,38,350,0.51,180,1870,675,1195,100,2407,20.7,0,NA,NA,0,0,,
Natural,Natural,40,42.5,38,350,0.51,180,1870,675,1195,150,2403,20.1,0,NA,NA,0,0,,
Natural,Natural,40,21.1,38,350,0.51,180,1870,675,1195,100,2405,15.9,0,NA,NA,0,0,,
Natural,Natural,40,58.9,38,350,0.51,180,1870,675,1195,100,2406,23,0,NA,NA,0,0,,
Natural,Natural,40,0,38,350,0.51,180,1870,675,1195,110,2403,22.8,27.9,NA,NA,0,0,,
Natural,Natural,40,49.7,38,350,0.5,175,1865,670,1195,120,2387,19.9,25.4,NA,NA,0,0,,
Natural,Natural,40,28.5,38,325,0.51,175,1875,675,1200,120,2409,22.1,29.9,NA,NA,0,0,,
Natural,Natural,20,54,38,350,0.5,175,1875,675,1200,150,2407,28.6,34,NA,NA,0,0,,
Natural,Natural,40,46,38,350,0.5,175,1875,675,1200,120,2404,20.5,0,NA,NA,0,0,,
Natural,Natural,40,41.6,38,350,0.52,175,1875,675,1200,110,2405,25,0,NA,NA,0,0,,
Natural,Natural,40,61.5,38,350,0.5,175,1875,675,1200,100,2403,29.2,0,NA,NA,0,0,,
Natural,Natural,40,50,38,350,0.5,175,1875,675,1200,130,2406,27.9,0,NA,NA,0,0,,
Natural,Natural,40,11,38,350,0.5,175,1855,655,1200,100,2382,27.8,0,NA,NA,0,0,,
Natural,Natural,40,45,38,350,0.5,175,1875,675,1200,110,2403,24,33.7,NA,NA,0,0,,
Natural,Natural,40,35.2,38,350,0.5,175,1875,675,1200,90,2404,21.6,30.1,NA,NA,0,0,,
Natural,Natural,40,63,38,350,0.5,175,1875,675,1200,100,2406,32.3,0,NA,NA,0,0,,
Natural,Natural,40,52.4,38,350,0.5,175,1865,665,1200,150,2406,24,0,NA,NA,0,0,,
Natural,Natural,40,52.4,38,350,0.5,175,1865,665,1200,150,19.5,0,0,NA,NA,0,0,,
Natural,Natural,40,47.4,38,350,0.5,175,1875,675,1200,75,2404,24.9,0,NA,NA,0,0,,
Crushed,Natural,40,31.1,38,350,0.54,190,1900,700,1200,90,2465,32.8,0,NA,NA,0,0,,
Natural,Natural,40,0,38,375,0.48,180,1845,645,1200,120,2401,26.2,0,NA,NA,0,0,,
Natural,Natural,20,46.2,38,350,0.51,180,1850,648,1202,140,2390,25.1,34.3,NA,NA,0,0,,
Natural,Natural,20,45.6,38,320,0.52,165,1915,710,1205,120,2407,32.7,0,SP,NA,1,0,,
Natural,Natural,20,45.6,38,320,0.52,165,1915,715,1205,170,2407,32.6,40.4,SP,NA,1,0,,
Natural,Natural,40,50.8,38,325,0.5,160,1915,710,1205,100,2407,37.3,41.4,CI,NA,0.75,0,,
Crushed,Natural,20,36.9,38,350,0.55,185,1915,710,1205,130,2403,23.5,0,SP,NA,3.5,0,,
Crushed,Natural,20,39.7,38,350,0.53,185,1915,710,1205,120,2451,28.9,0,NA,NA,0,0,,
Natural,Natural,20,42.2,38,350,0.5,175,1855,650,1205,140,2390,32.5,41.6,SP,NA,0.9,0,,
Natural,Natural,40,53.3,38,350,0.47,165,1885,680,1205,150,2418,26.5,29.5,SP,NA,0.75,0,,
Natural,Natural,40,53.3,38,350,0.47,165,1885,680,1205,170,2413,28.7,0,SP,NA,0.75,0,,
Natural,Natural,40,29.9,38,350,0.49,170,1880,675,1205,170,2405,26.6,31.5,NA,NA,0,0,,
Natural,Natural,40,17.1,38,350,0.49,170,1880,675,1205,90,2403,22.4,27.9,NA,NA,0,0,,
Natural,Natural,40,36,38,350,0.49,170,1880,675,1205,100,2400,25.3,0,NA,NA,0,0,,
Natural,Natural,40,53.2,38,365,0.49,180,1885,650,1205,150,2403,23.4,29.1,NA,NA,0,0,,
Natural,Natural,20,45.6,38,340,0.5,170,1890,680,1210,200,2402,32,42.2,SP,NA,1,0,,
Natural,Natural,20,52,38,350,0.54,190,1860,650,1210,130,2404,24.2,0,NA,NA,0,0,,
Natural,Natural,40,23.7,38,350,0.5,175,1865,655,1210,110,2394,38.5,0,NA,NA,0,0,,
Natural,Natural,40,37.2,38,325,0.52,170,1905,690,1215,140,2404,27.6,0,SP,NA,1,0,,
Natural,Natural,40,41.6,38,350,0.51,180,1870,655,1215,90,2403,20.5,0,NA,NA,0,0,,
Natural,Natural,40,60.6,38,350,0.51,180,1870,655,1215,110,2404,23,0,NA,NA,0,0,,
Natural,Natural,40,58.9,38,350,0.51,180,1870,655,1215,150,2405,24.2,0,NA,NA,0,0,,
Natural,Natural,40,62,38,350,0.5,175,1870,655,1215,130,2398,23.1,0,NA,NA,0,0,,
Natural,Natural,40,61,38,380,0.5,175,1850,635,1215,149,2391,25,0,NA,NA,0,0,,
Natural,Natural,40,45,38,330,0.48,160,1910,690,1220,180,2404,32,45.5,CO,NA,1,0,,
Crushed,Natural,20,32.5,38,350,0.54,190,1910,690,1220,120,2451,32.5,43,NA,NA,0,0,,
Crushed,Natural,20,54.2,38,350,0.54,190,1910,690,1220,120,2453,31.1,39.1,NA,NA,0,0,,
Crushed,Natural,20,29.1,38,350,0.54,190,1910,690,1220,100,2456,25.9,0,NA,NA,0,0,,
Crushed,Natural,20,54.1,38,350,0.54,190,1910,690,1220,120,2450,31.1,0,NA,NA,0,0,,
Natural,Natural,40,59.5,38,325,0.5,160,1915,690,1225,70,2404,38.7,40.7,CI,NA,0.75,0,,
Natural,Natural,20,59.7,38,340,0.5,170,1855,630,1225,115,2388,26.3,0,SI,NA,0.8,0,,
Natural,Natural,20,59.7,38,340,0.5,170,1855,630,1225,180,2382,28.1,36.9,SI,NA,0.8,0,,
Natural,Natural,40,0,38,350,0.47,165,1915,690,1225,140,2401,32.1,40.7,SI,NA,1,0,,
Natural,Natural,20,73,38,335,0.51,171,1890,660,1230,200,2410,27.7,0,SP,NA,1,0,,
Natural,Natural,20,73,38,335,0.52,175,1890,660,1230,170,2406,21.5,28.4,SP,NA,0,0,,
Natural,Natural,40,36.5,38,350,0.51,180,1870,640,1230,80,2400,27.4,0,NA,NA,0,0,,
Crushed,Natural,40,30.6,38,350,0.5,175,1890,660,1230,75,2417,30.8,0,NA,NA,0,0,,
Natural,Natural,40,51.1,38,350,0.55,180,1865,635,1230,125,2394,21.5,0,NA,NA,0,0,,
Natural,Natural,20,69.4,38,400,0.41,165,1835,605,1230,220,2404,30.2,0,SP,NA,1,0,,
Natural,Natural,40,26.2,38,310,0.5,155,1935,700,1235,170,2405,33,37.2,SP,NA,1,0,,
Natural,Natural,40,79,38,350,0.5,175,1875,635,1240,200,2406,28.6,0,SP,NA,1,0,,
Crushed,Natural,40,82,38,350,0.5,175,1915,675,1240,140,2445,30.9,0,SP,NA,0.75,0,,
Natural,Natural,40,45,38,350,0.51,180,1850,610,1240,130,2387,24.6,37,NA,NA,0,0,,
Natural,Natural,40,90,38,350,0.5,175,1855,615,1240,85,2416,22,27.2,NA,NA,0,0,,
Natural,Natural,40,45,38,350,0.49,170,1880,640,1240,110,2402,25.9,31.4,NA,NA,0,0,,
Crushed,Natural,40,82,38,350,0.5,175,1915,670,1245,100,2442,30.2,0,SP,NA,0.75,0,,
Crushed,Natural,20,83.4,38,370,0.55,205,1835,585,1250,80,2412,33.5,41,NA,NA,0,0,,
Natural,Natural,20,46.4,38,325,0.52,170,1905,650,1255,135,2402,34.8,43.9,PL,SI,1.3,1.63,,
Natural,Natural,40,75.8,38,350,0.49,170,1870,615,1255,80,2393,30.8,0,NA,NA,0,0,,
Natural,Natural,40,82,38,350,0.46,160,1890,625,1265,170,2404,31.5,0,SP,NA,0.75,0,,
Natural,Natural,40,78.6,38,350,0.51,180,1870,600,1270,130,2404,21.8,0,NA,NA,0,0,,
Natural,Natural,40,62.2,38,350,0.5,175,1855,575,1280,150,2388,28.3,32.5,NA,NA,0,0,,
Natural,Natural,40,62.2,38,350,0.5,175,1855,575,1280,85,2387,28.6,31.6,NA,NA,0,0,,
Natural,Natural,40,62.2,38,350,0.5,175,1855,575,1280,85,2389,28.6,0,NA,NA,0,0,,
Natural,Natural,40,59.8,38,350,0.5,175,1870,575,1295,120,2400,28.3,0,NA,NA,0,0,,
Natural,Natural,40,66.1,38,330,0.5,165,1905,570,1335,80,2403,30.6,37.4,SI,NA,0.8,0,,
Natural,Natural,40,82.6,38,350,0.5,175,1870,525,1345,120,2398,24.3,0,NA,NA,0,0,,
Natural,Natural,40,96.9,38,350,0.5,175,1875,510,1365,125,2404,24.6,30.8,NA,NA,0,0,,
Natural,Natural,40,82,38,350,0.5,175,1870,505,1365,90,2398,26.2,33,NA,NA,0,0,,
Natural,Natural,20,73,38,335,0.51,171,1890,660,1230,200,2407,27.7,39.3,SP,NA,1,0,,
Crushed,Natural,20,52.5,38,350,0.57,200,1910,710,710,125,2453,19,37.6,CO,NA,0.8,0,,
Crushed,Natural,20,26.1,38,360,0.53,190,1900,780,670,100,2454,28.2,34.1,NA,NA,0,0,,
Natural,Natural,20,39,38,350,0.51,180,1970,690,710,110,2406,30.4,37.2,NA,NA,0,0,,
Crushed,Natural,20,26.1,38,360,0.53,190,1900,780,760,100,2453,28.2,0,NA,NA,0,0,,
Crushed,Natural,20,45.6,38,350,0.53,185,1915,725,715,120,2456,32.8,0,NA,NA,0,0,,
Crushed,Natural,20,43,38,350,0.5,180,1910,710,720,90,2447,33.1,0,NA,NA,0,0,,
Crushed,Natural,20,0,38,350,0.54,190,1885,755,750,80,2430,25.8,0,NA,NA,0,0,,
Crushed,Natural,20,0,38,350,0.54,190,1885,755,750,80,2431,25.8,0,NA,NA,0,0,,
Crushed,Natural,20,26.3,38,350,0.6,210,1865,745,896,130,2427,28.3,0,NA,NA,0,0,,
Crushed,Natural,20,24.9,38,350,0.54,190,1900,760,685,140,2445,31,0,RH,NA,4.2,0,,
Crushed,Natural,20,49.5,38,380,0.5,290,1845,610,740,180,2424,29.1,41.5,SP,NA,0.9,0,,
Crushed,Natural,20,47,38,340,0.53,180,1930,770,696,120,2449,36.5,0,DO,NA,1,0,,
Crushed,Natural,20,0,43,375,0.48,180,1885,715,1070,180,2442,37.6,45.8,JY,NA,1.25,0,,
Crushed,Natural,20,0,43,375,0.51,190,1875,750,1125,150,2445,35.9,0,SP,NA,1,0,,
Crushed,Natural,20,0,43,375,0.49,185,1890,760,1130,200,2398,26.8,42.9,TS,NA,1,0,,
Crushed,Natural,20,0,43,375,0.48,180,1895,760,1135,180,2455,33.6,43.6,SP,NA,1.25,0,,
Natural,Natural,20,0,43,375,0.48,165,1860,710,1150,120,2408,29.4,36,SP,NA,3,0,,
Natural,Natural,0,0,0,375,0.48,180,1855,705,1150,100,2408,30.1,40.1,NA,NA,0,0,,
Natural,Natural,20,0,43,375,0.51,190,1875,715,1160,120,2443,21.4,0,NA,NA,0,0,,
Natural,Natural,20,0,43,365,0.47,170,1865,700,1165,190,2405,34.8,45.2,SP,NA,1,0,,
Crushed,Natural,20,0,43,375,0.47,190,1885,760,1170,150,2453,34.2,45.4,BA,NA,1,0,,
Crushed,Natural,20,0,43,365,0.52,185,1900,725,1175,175,2453,36.8,51.1,SP,NA,1,0,,
Natural,Natural,40,0,43,360,0.45,165,1875,675,1200,200,2410,39.3,0,SP,NA,1,0,,
Natural,Natural,40,0,43,380,0.44,165,1915,680,1235,150,2403.3,38.1,43.9,SI,NA,1,0,,
Natural,Natural,40,92,43,375,0.45,170,1855,540,1315,150,2405,31.9,40,86,NA,0.75,0,,
Crushed,Natural,20,85.4,43,400,0.45,180,1880,620,1260,180,2453.3,39.5,0,RE,NA,1.25,0,,
Crushed,Natural,20,83.4,43,400,0.51,205,1810,560,1250,70,2412,37.8,0,NA,NA,0,0,,
Crushed,Natural,40,79.2,43,375,0.51,190,1885,620,1265,170,2452.3,33.4,0,FL,NA,4.88,0,,
Natural,Natural,40,73.4,43,375,0.41,155,1850,630,1220,185,2427,0,0,KE,NA,0.9,0,,
Natural,Natural,20,73,43,370,0.46,170,1860,670,1190,200,2394,35.7,38.2,SP,NA,1,0,,
Crushed,Natural,20,66.4,43,365,0.52,190,1870,710,1160,160,2627,31.1,44.2,BA,NA,1,0,,
Crushed,Natural,20,65,43,410,0.44,180,1860,660,1200,210,2454,42.6,52.5,R2,NA,1.65,0,,
Crushed,Natural,20,64,43,375,0.51,190,1885,695,1190,80,2432,25.6,30,NA,NA,0,0,,
Natural,Natural,20,62.2,43,400,0.46,185,1795,610,1185,155,2383,25.5,33.1,NA,NA,0,0,,
Natural,Natural,20,61.1,43,360,0.46,165,1875,695,1180,140,2404,34.1,45.3,EU,NA,1,0,,
Natural,Natural,20,60.6,43,375,0.48,175,1830,660,1170,100,2382,27,0,NA,NA,0,0,,
Natural,Natural,40,59.5,43,350,0.48,168,1890,660,1230,90,2406,38,44.4,G,NA,0.75,0,,
Natural,Natural,40,58.7,43,370,0.46,170,1840,590,1250,75,2386,30,0,NA,NA,0,0,,
Natural,Natural,20,57.9,43,400,0.45,180,1810,780,1030,210,2401.5,33.1,0,SP,NA,1.25,0,,
Natural,Natural,20,57,43,360,0.46,165,1860,690,1170,200,2405,33.5,43.9,SP,NA,1,0,,
Crushed,Natural,20,56.4,43,375,0.48,180,1895,740,1155,180,2464,33.2,41.6,SP,NA,1,0,,
Natural,Natural,20,56,43,380,0.46,175,1825,675,1150,120,2385,28.8,35.6,NA,NA,0,0,,
Natural,Natural,40,55.9,43,370,0.46,170,1860,630,1230,120,2404,29.6,38.4,EU,NA,0.75,0,,
Natural,Natural,20,55,43,340,0.47,160,1900,760,1140,200,2395,37.3,0,SP,NA,1.45,0,,
Natural,Natural,20,54.8,43,375,0.43,160,1865,750,1115,100,2444,34.9,0,NA,NA,0,0,,
Crushed,Natural,20,54.1,43,375,0.51,190,1885,680,1205,150,2455,34.9,42.5,NA,NA,0,0,,
Crushed,Natural,20,53.5,43,375,0.48,180,1895,760,1135,150,2455,29.8,39.3,JY,NA,1.25,0,,
Natural,Natural,40,53.2,43,375,0.44,165,1845,700,1145,100,2402,27.7,28.4,SP,NA,1,0,,
Natural,Natural,20,52.2,43,375,0.48,180,1825,675,1150,200,2386,37.2,34.6,CO,NA,0.7,0,,
Crushed,Natural,20,52,43.1,385,0.51,195,1850,685,1165,90,2434,24.8,0,NA,NA,0,0,,
Crushed,Natural,40,51.8,43,365,0.44,160,1875,715,1160,150,2405,35.2,47.5,EU,NA,1,0,,
Natural,Natural,20,51.4,43,375,0.44,165,1865,710,1155,200,2403,34.1,0,RE,NA,1.1,0,,
Natural,Natural,40,50.8,43,350,0.46,160,1890,680,1210,80,2408,38.9,0,CI,NA,0.75,0,,
Crushed,Natural,20,50.1,43,375,0.51,190,1855,755,1130,100,2455,34.1,0,NA,NA,0,0,,
Natural,Natural,20,50,43,360,0.47,170,1870,748,1122,190,2405,37.8,46.4,NA,NA,0,0,,
Crushed,Natural,20,49.2,43,375,0.49,185,1900,760,1140,175,2465,28.3,0,EU,NA,1,0,,
Natural,Natural,40,49,43,360,0.47,170,1870,730,1140,230,2407,41.8,0,SP,NA,1,0,,
Natural,Natural,20,48.5,43,350,0.48,180,1870,730,1140,205,2407,32.8,40.4,SP,NA,1,0,,
Natural,Natural,20,48.3,43,365,0.46,170,1865,650,1215,190,2404,32.9,41.2,SP,NA,0.75,0,,
Natural,Natural,20,48,43,400,0.45,180,1805,725,1080,230,2389,30.3,0,RE,NA,1.25,0,,
Crushed,Natural,20,47,43,365,0.49,180,1905,740,1165,150,2465,39.8,48.9,NA,NA,1,0,,
Crushed,Natural,20,46.5,43,400,0.44,175,1875,750,1125,185,2453,31.4,41.6,SP,NA,1,0,,
Natural,Natural,40,46.2,43,375,0.45,170,1855,655,1190,200,2405,35.3,40.8,SP,NA,1,0,,
Crushed,Natural,20,45.6,43,365,0.51,185,1900,700,1200,160,2455,36.8,0,SP,NA,1,0,,
Natural,Natural,40,44,43,350,0.48,168,1882,755,1127,195,2405,39.1,0,SP,NA,1,0,,
Crushed,Natural,20,43.9,43,375,0.51,190,1885,700,1185,140,2456,31.9,0,NA,NA,0,0,,
Natural,Natural,40,43.6,43,365,0.47,170,1865,655,1210,200,2405,36.4,0,EU,NA,0.75,0,,
Crushed,Natural,20,43,43,375,0.49,185,1880,695,1175,170,2445,38.3,0,SP,NA,1,0,,
Crushed,Natural,20,43,43,360,0.5,180,1910,710,1200,130,2455,31.1,44.8,EU,NA,1,0,,
Natural,Natural,20,42.9,40.4,400,0.4,160,1840,735,1105,160,2443,30.2,0,SP,NA,0.75,0,,
Natural,Natural,40,42.6,43,375,0.48,180,1835,680,1150,140,2393,32.8,0,NA,NA,0,0,,
Natural,Natural,40,42.4,43,375,0.48,180,1845,665,1180,130,2405,27.5,0,NA,NA,0,0,,
Natural,Natural,40,42.1,43,375,0.48,180,1825,640,1185,140,2385.5,30.3,0,NA,NA,0,0,,
Crushed,Natural,20,41.9,43,375,0.48,185,1895,795,1100,180,2455,44.2,0,NA,NA,1.4,0,,
Natural,Natural,40,41.6,43,375,0.48,180,1905,665,1180,100,2405,27.8,0,NA,NA,0,0,,
Crushed,Natural,20,41,43,360,0.51,185,1855,795,1100,80,2442,33.9,41.7,NA,NA,0,0,,
Crushed,Natural,20,40.7,43,375,0.51,190,1885,755,1130,100,2456,24.6,0,NA,NA,0,0,,
Natural,Natural,40,39.4,43,350,0.48,168,1882,755,1127,180,2407,34.1,0,SP,NA,1,0,,
Crushed,Natural,20,38.7,43,385,0.49,190,1890,815,1075,170,2466,34,43.6,CA,NA,1.4,0,,
Crushed,Natural,20,38.3,43,375,0.49,185,1890,755,1135,130,2455,30.5,38.2,NA,NA,0,0,,
Natural,Natural,40,37.9,43,350,0.48,168,1872,750,1122,200,2394,36.5,0,EU,NA,0.75,0,,
Natural,Natural,40,37.1,43,375,0.48,180,1845,665,1180,120,2407,31,0,NA,NA,0,0,,
Natural,Natural,40,36.9,43,375,0.48,180,1825,640,1185,85,2385,25,34.1,NA,NA,0,0,,
Natural,Natural,40,36.5,43,375,0.48,180,1845,625,1120,100,2404.3,30.3,0,NA,NA,0,0,,
Crushed,Natural,20,34.8,38.5,400,0.42,168,1860,780,1080,200,2470,29.6,0,SP,NA,0.75,0,,
Crushed,Natural,40,34.2,43,350,0.53,185,1915,765,1150,140,2453.5,27,0,RE,NA,0.8,0,,
Crushed,Natural,20,33.8,43,375,0.48,180,1875,770,1105,200,2444,36.5,0,NA,NA,0,0,,
Natural,Natural,40,33.4,43,375,0.44,165,1860,670,1190,180,2404,31.7,34.3,RE,NA,1,0,,
Natural,Natural,40,33.1,43,360,0.46,165,1875,715,1160,180,2395,29.4,32.2,SP,NA,1,0,,
Natural,Natural,40,32.8,43,375,0.47,175,1860,700,1160,125,2409,32.5,0,SI,NA,3,0,,
Natural,Natural,40,32.7,43,350,0.47,165,1880,670,1210,190,2396,25.5,31.3,RE,LC,1,0.5,,
Natural,Natural,20,31.9,43,350,0.47,165,1870,750,1120,210,2402,42.1,0,SP,NA,1,0,,
Natural,Natural,40,31.3,43,360,0.45,160,1880,715,1165,125,2403,33.1,0,RE,NA,0.75,0,,
Crushed,Natural,20,30.7,43,375,0.51,190,1895,775,1120,190,2454.3,26.8,0,FL,NA,4.88,0,,
Crushed,Natural,20,30.4,43,385,0.52,200,1840,756,1075,115,2428,32.8,0,NA,NA,0,0,,
Natural,Natural,40,30,43,375,0.48,175,1840,700,1140,120,2394,31.1,38.7,NA,NA,0,0,,
Crushed,Natural,20,29.1,43.1,385,0.48,215,1810,815,995,70,2413.6,22.3,29.5,NA,NA,0,0,,
Natural,Natural,20,27.4,43,375,0.48,180,1845,700,1145,100,2405,27.9,0,NA,NA,0,0,,
Natural,Natural,40,26.2,43,350,0.47,165,1885,685,1200,190,2403,35.6,0,SP,NA,1,0,,
Crushed,Natural,20,24.9,43,370,0.51,190,1880,715,1165,120,2446,35.9,0,RH,NA,1,0,,
Natural,Natural,40,24.1,43,350,0.48,170,1870,785,1085,210,2400,36.9,43.3,RH,NA,3.5,0,,
Natural,Natural,40,24,43,365,0.44,160,1875,695,1180,140,2405,33.7,46,EU,NA,1,0,,
Natural,Natural,20,21,43,400,0.45,170,1855,725,1130,200,2407,34.6,41.5,SP,NA,1,0,,
Natural,Natural,20,19.5,43,350,0.47,165,1885,811,1074,210,2508,28.3,37.4,SP,NA,0.75,0,,
Natural,Natural,40,19.2,43,375,0.44,165,1860,650,1210,190,2402,32.6,46.7,NA,NA,1.2,0,,
Natural,Natural,40,17,43,375,0.44,165,1860,690,1170,165,2405,30.4,37.5,SP,NA,0.75,0,,
Natural,Natural,20,48,43,400,0.45,180,1305,725,1080,230,2386,30.3,34.5,R,NA,1.25,0,,
Natural,Natural,20,48,43,400,0.45,180,1805,725,1080,230,2385,34.5,45.5,RH,NA,1.25,0,,
Natural,Natural,20,0,43,375,0.45,170,1860,700,1160,170,2407,36.1,0,DO,NA,2.3,0,,